practice_trials.thisRepN,practice_trials.thisTrialN,practice_trials.thisN,practice_trials.thisIndex,setup_text.started,setup_text.stopped,instrText.started,instrText.stopped,endInstructions.keys,endInstructions.rt,endInstructions.started,endInstructions.stopped,ISI.started,ISI.stopped,fixation.started,fixation.stopped,grating.started,grating.stopped,resp.keys,resp.corr,resp.rt,resp.started,resp.stopped,text.started,text.stopped,key_resp_2.keys,key_resp_2.rt,key_resp_2.started,key_resp_2.stopped,theshold_estimation_trials.label,theshold_estimation_trials.startVal,theshold_estimation_trials.startValSd,theshold_estimation_trials.stim_diam_degs,theshold_estimation_trials.SF,theshold_estimation_trials.TF,theshold_estimation_trials.stepSizes,theshold_estimation_trials.maxVal,theshold_estimation_trials.minVal,theshold_estimation_trials.thisIndex,theshold_estimation_trials.thisRepN,theshold_estimation_trials.thisN,theshold_estimation_trials.direction,theshold_estimation_trials.stepSize,theshold_estimation_trials.stepType,theshold_estimation_trials.intensity,theshold_estimation_trials.response,thanksMsg.started,thanksMsg.stopped,participant,sex,date,expName,psychopyVersion,frameRate,
,,,,11.050629249992198,None,12.91195940200123,None,space,0.5542547350050882,12.91195940200123,None,,,,,,,,,,,,,,,,,,,,,,,,,,,,,,,,,,,,,001,F,2019_Oct_14_1130,contrast_sensitivity_abramov,3.2.4,60.4741499936388,
0,0,0,0,,,,,,,,,0.014331825805129483,None,13.744370458996855,14.360720643991954,14.473948831000598,None,left,0,0.512269697006559,14.473948831000598,None,,,,,,,,,,,,,,,,,,,,,,,,,,001,F,2019_Oct_14_1130,contrast_sensitivity_abramov,3.2.4,60.4741499936388,
1,0,1,0,,,,,,,,,0.012224518810398877,None,15.256779663002817,15.85685887800355,15.9903945249971,None,up,0,0.39585228300711606,15.9903945249971,None,,,,,,,,,,,,,,,,,,,,,,,,,,001,F,2019_Oct_14_1130,contrast_sensitivity_abramov,3.2.4,60.4741499936388,
2,0,2,0,,,,,,,,,0.013164594798581675,None,16.656883237999864,17.25686295000196,17.38983476899739,None,left,0,0.3003601590025937,17.38983476899739,None,,,,,,,,,,,,,,,,,,,,,,,,,,001,F,2019_Oct_14_1130,contrast_sensitivity_abramov,3.2.4,60.4741499936388,
3,0,3,0,,,,,,,,,0.01062495680525899,None,17.95671440899605,18.55792849799036,18.689809862989932,None,left,0,0.5043714830098907,18.689809862989932,None,,,,,,,,,,,,,,,,,,,,,,,,,,001,F,2019_Oct_14_1130,contrast_sensitivity_abramov,3.2.4,60.4741499936388,
4,0,4,0,,,,,,,,,0.013495077801053412,None,19.473598668002523,20.073272091001854,20.20704538199061,None,up,0,0.44316444000287447,20.20704538199061,None,,,,,,,,,,,,,,,,,,,,,,,,,,001,F,2019_Oct_14_1130,contrast_sensitivity_abramov,3.2.4,60.4741499936388,
5,0,5,0,,,,,,,,,0.012134503820561804,None,20.9231083689956,21.523466596991057,21.65698096099368,None,up,0,0.5212279480037978,21.65698096099368,None,,,,,,,,,,,,,,,,,,,,,,,,,,001,F,2019_Oct_14_1130,contrast_sensitivity_abramov,3.2.4,60.4741499936388,
6,0,6,0,,,,,,,,,0.01258257580047939,None,22.45681917699403,23.056795639000484,23.18892231499194,None,left,0,0.4214811220008414,23.18892231499194,None,,,,,,,,,,,,,,,,,,,,,,,,,,001,F,2019_Oct_14_1130,contrast_sensitivity_abramov,3.2.4,60.4741499936388,
7,0,7,0,,,,,,,,,0.012377078819554299,None,23.889212123991456,24.490652123000473,24.622916142994654,None,up,0,0.34736291400622576,24.622916142994654,None,,,,,,,,,,,,,,,,,,,,,,,,,,001,F,2019_Oct_14_1130,contrast_sensitivity_abramov,3.2.4,60.4741499936388,
8,0,8,0,,,,,,,,,0.011314226809190586,None,25.2393474720011,25.839113369991537,25.973423720002756,None,up,0,0.4128181289997883,25.973423720002756,None,,,,,,,,,,,,,,,,,,,,,,,,,,001,F,2019_Oct_14_1130,contrast_sensitivity_abramov,3.2.4,60.4741499936388,
9,0,9,0,,,,,,,,,0.012251403808477335,None,26.657194072002312,27.256993112998316,27.38993885499076,None,up,0,0.4203038910054602,27.38993885499076,None,,,,,,,,,,,,,,,,,,,,,,,,,,001,F,2019_Oct_14_1130,contrast_sensitivity_abramov,3.2.4,60.4741499936388,
,,,,,,,,,,,,,,,,,,,,,,,27.83994900599646,None,space,2.554325703997165,27.83994900599646,None,,,,,,,,,,,,,,,,,,,,001,F,2019_Oct_14_1130,contrast_sensitivity_abramov,3.2.4,60.4741499936388,
,,,,,,,,,,,,,,,,,,,,,,,,,,,,,sf_1.2_tf_1,0.5,0.05,3.6,1.2,1,"[4, 2, 2, 1]",1,0,0,1,0,start,4,lin,0.5,0,,,001,F,2019_Oct_14_1130,contrast_sensitivity_abramov,3.2.4,60.4741499936388,
,,,,,,,,,,,,,,,,,,,,,,,,,,,,,sf_12_tf_1,0.5,0.05,3.6,12.0,1,"[4, 2, 2, 1]",1,0,1,1,1,start,4,lin,0.5,0,,,001,F,2019_Oct_14_1130,contrast_sensitivity_abramov,3.2.4,60.4741499936388,
,,,,,,,,,,,,,,,,,,,,,,,,,,,,,sf_12_tf_1,0.5,0.05,3.6,12.0,1,"[4, 2, 2, 1]",1,0,1,2,2,start,4,lin,0.5240674859355188,0,,,001,F,2019_Oct_14_1130,contrast_sensitivity_abramov,3.2.4,60.4741499936388,
,,,,,,,,,,,,,,,,,,,,,,,,,,,,,sf_1.2_tf_1,0.5,0.05,3.6,1.2,1,"[4, 2, 2, 1]",1,0,0,2,3,start,4,lin,0.5240674859355188,0,,,001,F,2019_Oct_14_1130,contrast_sensitivity_abramov,3.2.4,60.4741499936388,
,,,,,,,,,,,,,,,,,,,,,,,,,,,,,sf_12_tf_1,0.5,0.05,3.6,12.0,1,"[4, 2, 2, 1]",1,0,1,3,4,start,4,lin,0.5399747081069984,0,,,001,F,2019_Oct_14_1130,contrast_sensitivity_abramov,3.2.4,60.4741499936388,
,,,,,,,,,,,,,,,,,,,,,,,,,,,,,sf_1.2_tf_1,0.5,0.05,3.6,1.2,1,"[4, 2, 2, 1]",1,0,0,3,5,start,4,lin,0.5399747081069984,0,,,001,F,2019_Oct_14_1130,contrast_sensitivity_abramov,3.2.4,60.4741499936388,
,,,,,,,,,,,,,,,,,,,,,,,,,,,,,sf_1.2_tf_1,0.5,0.05,3.6,1.2,1,"[4, 2, 2, 1]",1,0,0,4,6,start,4,lin,0.5549818653929014,0,,,001,F,2019_Oct_14_1130,contrast_sensitivity_abramov,3.2.4,60.4741499936388,
,,,,,,,,,,,,,,,,,,,,,,,,,,,,,sf_12_tf_1,0.5,0.05,3.6,12.0,1,"[4, 2, 2, 1]",1,0,1,4,7,start,4,lin,0.5549818653929014,0,,,001,F,2019_Oct_14_1130,contrast_sensitivity_abramov,3.2.4,60.4741499936388,
,,,,,,,,,,,,,,,,,,,,,,,,,,,,,sf_12_tf_1,0.5,0.05,3.6,12.0,1,"[4, 2, 2, 1]",1,0,1,5,8,start,4,lin,0.5682271588280314,0,,,001,F,2019_Oct_14_1130,contrast_sensitivity_abramov,3.2.4,60.4741499936388,
,,,,,,,,,,,,,,,,,,,,,,,,,,,,,sf_1.2_tf_1,0.5,0.05,3.6,1.2,1,"[4, 2, 2, 1]",1,0,0,5,9,start,4,lin,0.5682271588280314,0,,,001,F,2019_Oct_14_1130,contrast_sensitivity_abramov,3.2.4,60.4741499936388,
,,,,,,,,,,,,,,,,,,,,,,,,,,,,,sf_1.2_tf_1,0.5,0.05,3.6,1.2,1,"[4, 2, 2, 1]",1,0,0,6,10,start,4,lin,0.5812533968022043,0,,,001,F,2019_Oct_14_1130,contrast_sensitivity_abramov,3.2.4,60.4741499936388,
,,,,,,,,,,,,,,,,,,,,,,,,,,,,,sf_12_tf_1,0.5,0.05,3.6,12.0,1,"[4, 2, 2, 1]",1,0,1,6,11,start,4,lin,0.5812533968022043,0,,,001,F,2019_Oct_14_1130,contrast_sensitivity_abramov,3.2.4,60.4741499936388,
,,,,,,,,,,,,,,,,,,,,,,,,,,,,,sf_1.2_tf_1,0.5,0.05,3.6,1.2,1,"[4, 2, 2, 1]",1,0,0,7,12,start,4,lin,0.5932620371511558,0,,,001,F,2019_Oct_14_1130,contrast_sensitivity_abramov,3.2.4,60.4741499936388,
,,,,,,,,,,,,,,,,,,,,,,,,,,,,,sf_12_tf_1,0.5,0.05,3.6,12.0,1,"[4, 2, 2, 1]",1,0,1,7,13,start,4,lin,0.5932620371511558,0,,,001,F,2019_Oct_14_1130,contrast_sensitivity_abramov,3.2.4,60.4741499936388,
,,,,,,,,,,,,,,,,,,,,,,,,,,,,,sf_1.2_tf_1,0.5,0.05,3.6,1.2,1,"[4, 2, 2, 1]",1,0,0,8,14,start,4,lin,0.6044424794641969,0,,,001,F,2019_Oct_14_1130,contrast_sensitivity_abramov,3.2.4,60.4741499936388,
,,,,,,,,,,,,,,,,,,,,,,,,,,,,,sf_12_tf_1,0.5,0.05,3.6,12.0,1,"[4, 2, 2, 1]",1,0,1,8,15,start,4,lin,0.6044424794641969,0,,,001,F,2019_Oct_14_1130,contrast_sensitivity_abramov,3.2.4,60.4741499936388,
,,,,,,,,,,,,,,,,,,,,,,,,,,,,,sf_1.2_tf_1,0.5,0.05,3.6,1.2,1,"[4, 2, 2, 1]",1,0,0,9,16,start,4,lin,0.6149956036189853,0,,,001,F,2019_Oct_14_1130,contrast_sensitivity_abramov,3.2.4,60.4741499936388,
,,,,,,,,,,,,,,,,,,,,,,,,,,,,,sf_12_tf_1,0.5,0.05,3.6,12.0,1,"[4, 2, 2, 1]",1,0,1,9,17,start,4,lin,0.6149956036189853,0,,,001,F,2019_Oct_14_1130,contrast_sensitivity_abramov,3.2.4,60.4741499936388,
,,,,,,,,,,,,,,,,,,,,,,,,,,,,,sf_12_tf_1,0.5,0.05,3.6,12.0,1,"[4, 2, 2, 1]",1,0,1,10,18,start,4,lin,0.6250555732150089,0,,,001,F,2019_Oct_14_1130,contrast_sensitivity_abramov,3.2.4,60.4741499936388,
,,,,,,,,,,,,,,,,,,,,,,,,,,,,,sf_1.2_tf_1,0.5,0.05,3.6,1.2,1,"[4, 2, 2, 1]",1,0,0,10,19,start,4,lin,0.6250555732150089,0,,,001,F,2019_Oct_14_1130,contrast_sensitivity_abramov,3.2.4,60.4741499936388,
,,,,,,,,,,,,,,,,,,,,,,,,,,,,,sf_1.2_tf_1,0.5,0.05,3.6,1.2,1,"[4, 2, 2, 1]",1,0,0,11,20,start,4,lin,0.6354504380923945,0,,,001,F,2019_Oct_14_1130,contrast_sensitivity_abramov,3.2.4,60.4741499936388,
,,,,,,,,,,,,,,,,,,,,,,,,,,,,,sf_12_tf_1,0.5,0.05,3.6,12.0,1,"[4, 2, 2, 1]",1,0,1,11,21,start,4,lin,0.6354504380923945,0,,,001,F,2019_Oct_14_1130,contrast_sensitivity_abramov,3.2.4,60.4741499936388,
,,,,,,,,,,,,,,,,,,,,,,,,,,,,,sf_1.2_tf_1,0.5,0.05,3.6,1.2,1,"[4, 2, 2, 1]",1,0,0,12,22,start,4,lin,0.6454177780487753,0,,,001,F,2019_Oct_14_1130,contrast_sensitivity_abramov,3.2.4,60.4741499936388,
,,,,,,,,,,,,,,,,,,,,,,,,,,,,,sf_12_tf_1,0.5,0.05,3.6,12.0,1,"[4, 2, 2, 1]",1,0,1,12,23,start,4,lin,0.6454177780487753,0,,,001,F,2019_Oct_14_1130,contrast_sensitivity_abramov,3.2.4,60.4741499936388,
,,,,,,,,,,,,,,,,,,,,,,,,,,,,,sf_1.2_tf_1,0.5,0.05,3.6,1.2,1,"[4, 2, 2, 1]",1,0,0,13,24,start,4,lin,0.6550332099271292,0,,,001,F,2019_Oct_14_1130,contrast_sensitivity_abramov,3.2.4,60.4741499936388,
,,,,,,,,,,,,,,,,,,,,,,,,,,,,,sf_12_tf_1,0.5,0.05,3.6,12.0,1,"[4, 2, 2, 1]",1,0,1,13,25,start,4,lin,0.6550332099271292,0,,,001,F,2019_Oct_14_1130,contrast_sensitivity_abramov,3.2.4,60.4741499936388,
,,,,,,,,,,,,,,,,,,,,,,,,,,,,,sf_1.2_tf_1,0.5,0.05,3.6,1.2,1,"[4, 2, 2, 1]",1,0,0,14,26,start,4,lin,0.6643531884188904,0,,,001,F,2019_Oct_14_1130,contrast_sensitivity_abramov,3.2.4,60.4741499936388,
,,,,,,,,,,,,,,,,,,,,,,,,,,,,,sf_12_tf_1,0.5,0.05,3.6,12.0,1,"[4, 2, 2, 1]",1,0,1,14,27,start,4,lin,0.6643531884188904,0,,,001,F,2019_Oct_14_1130,contrast_sensitivity_abramov,3.2.4,60.4741499936388,
,,,,,,,,,,,,,,,,,,,,,,,,,,,,,sf_1.2_tf_1,0.5,0.05,3.6,1.2,1,"[4, 2, 2, 1]",1,0,0,15,28,start,4,lin,0.6727611046223798,0,,,001,F,2019_Oct_14_1130,contrast_sensitivity_abramov,3.2.4,60.4741499936388,
,,,,,,,,,,,,,,,,,,,,,,,,,,,,,sf_12_tf_1,0.5,0.05,3.6,12.0,1,"[4, 2, 2, 1]",1,0,1,15,29,start,4,lin,0.6727611046223798,0,,,001,F,2019_Oct_14_1130,contrast_sensitivity_abramov,3.2.4,60.4741499936388,
,,,,,,,,,,,,,,,,,,,,,,,,,,,,,sf_12_tf_1,0.5,0.05,3.6,12.0,1,"[4, 2, 2, 1]",1,0,1,16,30,start,4,lin,0.6809917236426999,0,,,001,F,2019_Oct_14_1130,contrast_sensitivity_abramov,3.2.4,60.4741499936388,
,,,,,,,,,,,,,,,,,,,,,,,,,,,,,sf_1.2_tf_1,0.5,0.05,3.6,1.2,1,"[4, 2, 2, 1]",1,0,0,16,31,start,4,lin,0.6809917236426999,0,,,001,F,2019_Oct_14_1130,contrast_sensitivity_abramov,3.2.4,60.4741499936388,
,,,,,,,,,,,,,,,,,,,,,,,,,,,,,sf_1.2_tf_1,0.5,0.05,3.6,1.2,1,"[4, 2, 2, 1]",1,0,0,17,32,start,4,lin,0.6891296328065071,0,,,001,F,2019_Oct_14_1130,contrast_sensitivity_abramov,3.2.4,60.4741499936388,
,,,,,,,,,,,,,,,,,,,,,,,,,,,,,sf_12_tf_1,0.5,0.05,3.6,12.0,1,"[4, 2, 2, 1]",1,0,1,17,33,start,4,lin,0.6891296328065071,0,,,001,F,2019_Oct_14_1130,contrast_sensitivity_abramov,3.2.4,60.4741499936388,
,,,,,,,,,,,,,,,,,,,,,,,,,,,,,sf_1.2_tf_1,0.5,0.05,3.6,1.2,1,"[4, 2, 2, 1]",1,0,0,18,34,start,4,lin,0.6972409897801691,0,,,001,F,2019_Oct_14_1130,contrast_sensitivity_abramov,3.2.4,60.4741499936388,
,,,,,,,,,,,,,,,,,,,,,,,,,,,,,sf_12_tf_1,0.5,0.05,3.6,12.0,1,"[4, 2, 2, 1]",1,0,1,18,35,start,4,lin,0.6972409897801691,0,,,001,F,2019_Oct_14_1130,contrast_sensitivity_abramov,3.2.4,60.4741499936388,
,,,,,,,,,,,,,,,,,,,,,,,,,,,,,sf_1.2_tf_1,0.5,0.05,3.6,1.2,1,"[4, 2, 2, 1]",1,0,0,19,36,start,4,lin,0.7052541350225909,0,,,001,F,2019_Oct_14_1130,contrast_sensitivity_abramov,3.2.4,60.4741499936388,
,,,,,,,,,,,,,,,,,,,,,,,,,,,,,sf_12_tf_1,0.5,0.05,3.6,12.0,1,"[4, 2, 2, 1]",1,0,1,19,37,start,4,lin,0.7052541350225909,0,,,001,F,2019_Oct_14_1130,contrast_sensitivity_abramov,3.2.4,60.4741499936388,
,,,,,,,,,,,,,,,,,,,,,,,,,,,,,sf_1.2_tf_1,0.5,0.05,3.6,1.2,1,"[4, 2, 2, 1]",1,0,0,20,38,start,4,lin,0.7131615429430304,0,,,001,F,2019_Oct_14_1130,contrast_sensitivity_abramov,3.2.4,60.4741499936388,
,,,,,,,,,,,,,,,,,,,,,,,,,,,,,sf_12_tf_1,0.5,0.05,3.6,12.0,1,"[4, 2, 2, 1]",1,0,1,20,39,start,4,lin,0.7131615429430304,0,,,001,F,2019_Oct_14_1130,contrast_sensitivity_abramov,3.2.4,60.4741499936388,
,,,,,,,,,,,,,,,,,,,,,,,,,,,,,sf_12_tf_1,0.5,0.05,3.6,12.0,1,"[4, 2, 2, 1]",1,0,1,21,40,start,4,lin,0.7203518434150047,0,,,001,F,2019_Oct_14_1130,contrast_sensitivity_abramov,3.2.4,60.4741499936388,
,,,,,,,,,,,,,,,,,,,,,,,,,,,,,sf_1.2_tf_1,0.5,0.05,3.6,1.2,1,"[4, 2, 2, 1]",1,0,0,21,41,start,4,lin,0.7203518434150047,0,,,001,F,2019_Oct_14_1130,contrast_sensitivity_abramov,3.2.4,60.4741499936388,
,,,,,,,,,,,,,,,,,,,,,,,,,,,,,sf_1.2_tf_1,0.5,0.05,3.6,1.2,1,"[4, 2, 2, 1]",1,0,0,22,42,start,4,lin,0.7276714557592658,0,,,001,F,2019_Oct_14_1130,contrast_sensitivity_abramov,3.2.4,60.4741499936388,
,,,,,,,,,,,,,,,,,,,,,,,,,,,,,sf_12_tf_1,0.5,0.05,3.6,12.0,1,"[4, 2, 2, 1]",1,0,1,22,43,start,4,lin,0.7276714557592658,0,,,001,F,2019_Oct_14_1130,contrast_sensitivity_abramov,3.2.4,60.4741499936388,
,,,,,,,,,,,,,,,,,,,,,,,,,,,,,sf_1.2_tf_1,0.5,0.05,3.6,1.2,1,"[4, 2, 2, 1]",1,0,0,23,44,start,4,lin,0.7349950578035329,0,,,001,F,2019_Oct_14_1130,contrast_sensitivity_abramov,3.2.4,60.4741499936388,
,,,,,,,,,,,,,,,,,,,,,,,,,,,,,sf_12_tf_1,0.5,0.05,3.6,12.0,1,"[4, 2, 2, 1]",1,0,1,23,45,start,4,lin,0.7349950578035329,0,,,001,F,2019_Oct_14_1130,contrast_sensitivity_abramov,3.2.4,60.4741499936388,
,,,,,,,,,,,,,,,,,,,,,,,,,,,,,sf_12_tf_1,0.5,0.05,3.6,12.0,1,"[4, 2, 2, 1]",1,0,1,24,46,start,4,lin,0.7417070723614859,0,,,001,F,2019_Oct_14_1130,contrast_sensitivity_abramov,3.2.4,60.4741499936388,
,,,,,,,,,,,,,,,,,,,,,,,,,,,,,sf_1.2_tf_1,0.5,0.05,3.6,1.2,1,"[4, 2, 2, 1]",1,0,0,24,47,start,4,lin,0.7417070723614859,0,,,001,F,2019_Oct_14_1130,contrast_sensitivity_abramov,3.2.4,60.4741499936388,
,,,,,,,,,,,,,,,,,,,,,,,,,,,,,sf_1.2_tf_1,0.5,0.05,3.6,1.2,1,"[4, 2, 2, 1]",1,0,0,25,48,start,4,lin,0.7484581908988307,0,,,001,F,2019_Oct_14_1130,contrast_sensitivity_abramov,3.2.4,60.4741499936388,
,,,,,,,,,,,,,,,,,,,,,,,,,,,,,sf_12_tf_1,0.5,0.05,3.6,12.0,1,"[4, 2, 2, 1]",1,0,1,25,49,start,4,lin,0.7484581908988307,0,,,001,F,2019_Oct_14_1130,contrast_sensitivity_abramov,3.2.4,60.4741499936388,
,,,,,,,,,,,,,,,,,,,,,,,,,,,,,sf_12_tf_1,0.5,0.05,3.6,12.0,1,"[4, 2, 2, 1]",1,0,1,26,50,start,4,lin,0.7553575115919673,0,,,001,F,2019_Oct_14_1130,contrast_sensitivity_abramov,3.2.4,60.4741499936388,
,,,,,,,,,,,,,,,,,,,,,,,,,,,,,sf_1.2_tf_1,0.5,0.05,3.6,1.2,1,"[4, 2, 2, 1]",1,0,0,26,51,start,4,lin,0.7553575115919673,0,,,001,F,2019_Oct_14_1130,contrast_sensitivity_abramov,3.2.4,60.4741499936388,
,,,,,,,,,,,,,,,,,,,,,,,,,,,,,sf_1.2_tf_1,0.5,0.05,3.6,1.2,1,"[4, 2, 2, 1]",1,0,0,27,52,start,4,lin,0.7622105366538379,0,,,001,F,2019_Oct_14_1130,contrast_sensitivity_abramov,3.2.4,60.4741499936388,
,,,,,,,,,,,,,,,,,,,,,,,,,,,,,sf_12_tf_1,0.5,0.05,3.6,12.0,1,"[4, 2, 2, 1]",1,0,1,27,53,start,4,lin,0.7622105366538379,0,,,001,F,2019_Oct_14_1130,contrast_sensitivity_abramov,3.2.4,60.4741499936388,
,,,,,,,,,,,,,,,,,,,,,,,,,,,,,sf_1.2_tf_1,0.5,0.05,3.6,1.2,1,"[4, 2, 2, 1]",1,0,0,28,54,start,4,lin,0.768561112965124,0,,,001,F,2019_Oct_14_1130,contrast_sensitivity_abramov,3.2.4,60.4741499936388,
,,,,,,,,,,,,,,,,,,,,,,,,,,,,,sf_12_tf_1,0.5,0.05,3.6,12.0,1,"[4, 2, 2, 1]",1,0,1,28,55,start,4,lin,0.768561112965124,0,,,001,F,2019_Oct_14_1130,contrast_sensitivity_abramov,3.2.4,60.4741499936388,
,,,,,,,,,,,,,,,,,,,,,,,,,,,,,sf_1.2_tf_1,0.5,0.05,3.6,1.2,1,"[4, 2, 2, 1]",1,0,0,29,56,start,4,lin,0.7751172815242267,0,,,001,F,2019_Oct_14_1130,contrast_sensitivity_abramov,3.2.4,60.4741499936388,
,,,,,,,,,,,,,,,,,,,,,,,,,,,,,sf_12_tf_1,0.5,0.05,3.6,12.0,1,"[4, 2, 2, 1]",1,0,1,29,57,start,4,lin,0.7751172815242267,0,,,001,F,2019_Oct_14_1130,contrast_sensitivity_abramov,3.2.4,60.4741499936388,
,,,,,,,,,,,,,,,,,,,,,,,,,,,,,sf_1.2_tf_1,0.5,0.05,3.6,1.2,1,"[4, 2, 2, 1]",1,0,0,30,58,start,4,lin,0.7816240704089812,0,,,001,F,2019_Oct_14_1130,contrast_sensitivity_abramov,3.2.4,60.4741499936388,
,,,,,,,,,,,,,,,,,,,,,,,,,,,,,sf_12_tf_1,0.5,0.05,3.6,12.0,1,"[4, 2, 2, 1]",1,0,1,30,59,start,4,lin,0.7816240704089812,0,,,001,F,2019_Oct_14_1130,contrast_sensitivity_abramov,3.2.4,60.4741499936388,
,,,,,,,,,,,,,,,,,,,,,,,,,,,,,sf_1.2_tf_1,0.5,0.05,3.6,1.2,1,"[4, 2, 2, 1]",1,0,0,31,60,start,4,lin,0.7877375087910972,0,,,001,F,2019_Oct_14_1130,contrast_sensitivity_abramov,3.2.4,60.4741499936388,
,,,,,,,,,,,,,,,,,,,,,,,,,,,,,sf_12_tf_1,0.5,0.05,3.6,12.0,1,"[4, 2, 2, 1]",1,0,1,31,61,start,4,lin,0.7877375087910972,0,,,001,F,2019_Oct_14_1130,contrast_sensitivity_abramov,3.2.4,60.4741499936388,
,,,,,,,,,,,,,,,,,,,,,,,,,,,,,sf_12_tf_1,0.5,0.05,3.6,12.0,1,"[4, 2, 2, 1]",1,0,1,32,62,start,4,lin,0.7940180582533085,0,,,001,F,2019_Oct_14_1130,contrast_sensitivity_abramov,3.2.4,60.4741499936388,
,,,,,,,,,,,,,,,,,,,,,,,,,,,,,sf_1.2_tf_1,0.5,0.05,3.6,1.2,1,"[4, 2, 2, 1]",1,0,0,32,63,start,4,lin,0.7940180582533085,0,,,001,F,2019_Oct_14_1130,contrast_sensitivity_abramov,3.2.4,60.4741499936388,
,,,,,,,,,,,,,,,,,,,,,,,,,,,,,sf_12_tf_1,0.5,0.05,3.6,12.0,1,"[4, 2, 2, 1]",1,0,1,33,64,start,4,lin,0.799739322079921,0,,,001,F,2019_Oct_14_1130,contrast_sensitivity_abramov,3.2.4,60.4741499936388,
,,,,,,,,,,,,,,,,,,,,,,,,,,,,,sf_1.2_tf_1,0.5,0.05,3.6,1.2,1,"[4, 2, 2, 1]",1,0,0,33,65,start,4,lin,0.799739322079921,0,,,001,F,2019_Oct_14_1130,contrast_sensitivity_abramov,3.2.4,60.4741499936388,
,,,,,,,,,,,,,,,,,,,,,,,,,,,,,sf_1.2_tf_1,0.5,0.05,3.6,1.2,1,"[4, 2, 2, 1]",1,0,0,34,66,start,4,lin,0.8057961377075895,0,,,001,F,2019_Oct_14_1130,contrast_sensitivity_abramov,3.2.4,60.4741499936388,
,,,,,,,,,,,,,,,,,,,,,,,,,,,,,sf_12_tf_1,0.5,0.05,3.6,12.0,1,"[4, 2, 2, 1]",1,0,1,34,67,start,4,lin,0.8057961377075895,0,,,001,F,2019_Oct_14_1130,contrast_sensitivity_abramov,3.2.4,60.4741499936388,
,,,,,,,,,,,,,,,,,,,,,,,,,,,,,sf_12_tf_1,0.5,0.05,3.6,12.0,1,"[4, 2, 2, 1]",1,0,1,35,68,start,4,lin,0.8118236979741202,0,,,001,F,2019_Oct_14_1130,contrast_sensitivity_abramov,3.2.4,60.4741499936388,
,,,,,,,,,,,,,,,,,,,,,,,,,,,,,sf_1.2_tf_1,0.5,0.05,3.6,1.2,1,"[4, 2, 2, 1]",1,0,0,35,69,start,4,lin,0.8118236979741202,0,,,001,F,2019_Oct_14_1130,contrast_sensitivity_abramov,3.2.4,60.4741499936388,
,,,,,,,,,,,,,,,,,,,,,,,,,,,,,sf_12_tf_1,0.5,0.05,3.6,12.0,1,"[4, 2, 2, 1]",1,0,1,36,70,start,4,lin,0.8175035330706062,0,,,001,F,2019_Oct_14_1130,contrast_sensitivity_abramov,3.2.4,60.4741499936388,
,,,,,,,,,,,,,,,,,,,,,,,,,,,,,sf_1.2_tf_1,0.5,0.05,3.6,1.2,1,"[4, 2, 2, 1]",1,0,0,36,71,start,4,lin,0.8175035330706062,0,,,001,F,2019_Oct_14_1130,contrast_sensitivity_abramov,3.2.4,60.4741499936388,
,,,,,,,,,,,,,,,,,,,,,,,,,,,,,sf_1.2_tf_1,0.5,0.05,3.6,1.2,1,"[4, 2, 2, 1]",1,0,0,37,72,start,4,lin,0.8233703143366102,0,,,001,F,2019_Oct_14_1130,contrast_sensitivity_abramov,3.2.4,60.4741499936388,
,,,,,,,,,,,,,,,,,,,,,,,,,,,,,sf_12_tf_1,0.5,0.05,3.6,12.0,1,"[4, 2, 2, 1]",1,0,1,37,73,start,4,lin,0.8233703143366102,0,,,001,F,2019_Oct_14_1130,contrast_sensitivity_abramov,3.2.4,60.4741499936388,
,,,,,,,,,,,,,,,,,,,,,,,,,,,,,sf_12_tf_1,0.5,0.05,3.6,12.0,1,"[4, 2, 2, 1]",1,0,1,38,74,start,4,lin,0.8287654287742541,0,,,001,F,2019_Oct_14_1130,contrast_sensitivity_abramov,3.2.4,60.4741499936388,
,,,,,,,,,,,,,,,,,,,,,,,,,,,,,sf_1.2_tf_1,0.5,0.05,3.6,1.2,1,"[4, 2, 2, 1]",1,0,0,38,75,start,4,lin,0.8287654287742541,0,,,001,F,2019_Oct_14_1130,contrast_sensitivity_abramov,3.2.4,60.4741499936388,
,,,,,,,,,,,,,,,,,,,,,,,,,,,,,sf_12_tf_1,0.5,0.05,3.6,12.0,1,"[4, 2, 2, 1]",1,0,1,39,76,start,4,lin,0.8344749767436047,0,,,001,F,2019_Oct_14_1130,contrast_sensitivity_abramov,3.2.4,60.4741499936388,
,,,,,,,,,,,,,,,,,,,,,,,,,,,,,sf_1.2_tf_1,0.5,0.05,3.6,1.2,1,"[4, 2, 2, 1]",1,0,0,39,77,start,4,lin,0.8344749767436047,0,,,001,F,2019_Oct_14_1130,contrast_sensitivity_abramov,3.2.4,60.4741499936388,
,,,,,,,,,,,,,,,,,,,,,,,,,,,,,sf_12_tf_1,0.5,0.05,3.6,12.0,1,"[4, 2, 2, 1]",1,0,1,40,78,start,4,lin,0.8396598473948624,0,,,001,F,2019_Oct_14_1130,contrast_sensitivity_abramov,3.2.4,60.4741499936388,
,,,,,,,,,,,,,,,,,,,,,,,,,,,,,sf_1.2_tf_1,0.5,0.05,3.6,1.2,1,"[4, 2, 2, 1]",1,0,0,40,79,start,4,lin,0.8396598473948624,0,,,001,F,2019_Oct_14_1130,contrast_sensitivity_abramov,3.2.4,60.4741499936388,
,,,,,,,,,,,,,,,,,,,,,,,,,,,,,,,,,,,,,,,,,,,,,,156.1909669489978,None,,,,,,,
